Wavelength(nm),Abs,PL
187.928,-0.2,
188.405,-0.2,
188.882,-0.2,
189.359,0.43,
189.835,0,
190.312,-0.08,
190.789,0,
191.265,0.18,
191.742,0,
192.219,-0.27,
192.695,0.04,
193.172,-0.42,
193.648,-0.2,
194.125,-0.35,
194.601,0,
195.077,1.35,
195.554,-0.1,
196.03,-0.82,
196.506,0,
196.983,0,
197.459,0,
197.935,-0.34,
198.411,-0.42,
198.887,0,
199.363,0,
199.839,0,
200.315,0.46,
200.791,-0.89,
201.267,0.15,
201.743,0.27,
202.219,0.23,
202.695,0.09,
203.171,-0.09,
203.647,0.17,
204.122,0.07,
204.598,0.2,
205.074,0,
205.549,-0.11,
206.025,0.47,
206.501,-0.25,
206.976,0.03,
207.452,0.08,
207.927,-1.57,
208.402,0.38,
208.878,0,
209.353,0.01,
209.829,0.72,
210.304,0.21,
210.779,-0.23,
211.254,0.06,
211.73,0.51,
212.205,-0.39,
212.68,0.81,
213.155,0.35,
213.63,0,
214.105,0.47,
214.58,0,
215.055,0,
215.53,0.13,
216.005,-0.26,
216.48,0.16,
216.954,0.53,
217.429,0.64,
217.904,0,
218.379,0.51,
218.853,-0.04,
219.328,-0.33,
219.803,0.85,
220.277,0,
220.752,0,
221.226,-0.24,
221.701,-0.98,
222.175,-0.7,
222.65,0.07,
223.124,0.28,
223.598,0.08,
224.073,0.66,
224.547,-0.01,
225.021,0.43,
225.495,0,
225.97,0.72,
226.444,0.39,
226.918,-0.16,
227.392,0.14,
227.866,0.34,
228.34,0,
228.814,0.25,
229.288,0.21,
229.762,0,
230.236,1.16,
230.71,-0.27,
231.183,-0.29,
231.657,0.4,
232.131,0,
232.605,0,
233.078,0.39,
233.552,0.4,
234.026,0.54,
234.499,0.14,
234.973,0,
235.446,0.24,
235.92,0,
236.393,0.64,
236.867,-0.11,
237.34,0.57,
237.813,0,
238.287,0.09,
238.76,0.11,
239.233,-1.07,
239.706,0,
240.179,0,
240.653,0.08,
241.126,-0.15,
241.599,0.51,
242.072,-0.57,
242.545,0,
243.018,-0.12,
243.491,-0.47,
243.964,-0.23,
244.437,0.35,
244.909,-0.28,
245.382,0.14,
245.855,0,
246.328,0.13,
246.8,-0.1,
247.273,0,
247.746,0,
248.218,0,
248.691,-0.09,
249.163,-0.19,
249.636,0.12,
250.108,0.69,
250.581,0.66,
251.053,-0.07,
251.526,0.79,
251.998,0,
252.47,0,
252.943,-0.04,
253.415,0,
253.887,0,
254.359,1.06,
254.831,0.02,
255.304,0,
255.776,0,
256.248,0.4,
256.72,0.13,
257.192,0.86,
257.664,0,
258.136,0.19,
258.607,-0.02,
259.079,0.3,
259.551,0,
260.023,0.08,
260.495,0.59,
260.966,0.2,
261.438,0.1,
261.91,0,
262.381,0,
262.853,0.11,
263.325,0.58,
263.796,0.8,
264.268,0,
264.739,0.7,
265.21,-0.26,
265.682,0,
266.153,0,
266.624,0.27,
267.096,0.3,
267.567,0,
268.038,0,
268.509,0.24,
268.981,0.55,
269.452,0.52,
269.923,1.75,
270.394,0.36,
270.865,-0.12,
271.336,0.73,
271.807,0,
272.278,0.3,
272.749,-0.01,
273.22,0.64,
273.69,1.05,
274.161,0.16,
274.632,0.14,
275.103,0,
275.574,0,
276.044,0.8,
276.515,0.09,
276.985,0.59,
277.456,1.31,
277.927,0,
278.397,-0.7,
278.868,0.42,
279.338,0,
279.808,0.21,
280.279,0.29,
280.749,0,
281.219,0,
281.69,-1.28,
282.16,0,
282.63,0.01,
283.1,0,
283.571,0.35,
284.041,0.38,
284.511,0.33,
284.981,0.57,
285.451,0,
285.921,0.38,
286.391,0.04,
286.861,0.19,
287.331,2.11,
287.8,0.61,
288.27,0,
288.74,0.08,
289.21,0.3,
289.68,0.47,
290.149,0.47,
290.619,0.01,
291.089,0.43,
291.558,0,
292.028,2.17,
292.497,0.34,
292.967,0.64,
293.436,1.35,
293.906,1.29,
294.375,0.8,
294.845,0.6,
295.314,1.21,
295.783,0.8,
296.253,0.81,
296.722,0.88,
297.191,1.26,
297.66,0,
298.129,1.34,
298.598,1.3,
299.068,0,
299.537,0,
300.006,0,
300.475,1.43,
300.944,1.39,
301.413,0,
301.881,1.68,
302.35,1.54,
302.819,2.11,
303.288,0,
303.757,0,
304.225,2.28,
304.694,1.39,
305.163,1.89,
305.632,2.23,
306.1,1.62,
306.569,2.96,
307.037,0,
307.506,0,
307.974,1.79,
308.443,2.01,
308.911,2.7,
309.38,2.27,
309.848,2.05,
310.316,2.77,
310.785,0,
311.253,0,
311.721,2.14,
312.189,2.4,
312.657,1.93,
313.126,0,
313.594,2.51,
314.062,2.44,
314.53,2.28,
314.998,1.96,
315.466,2.86,
315.934,2.29,
316.402,2.67,
316.869,3.98,
317.337,3.19,
317.805,2.52,
318.273,2.17,
318.741,2.41,
319.208,2.88,
319.676,0,
320.144,2.61,
320.611,2.57,
321.079,2.41,
321.547,3.5,
322.014,2.29,
322.482,2.7,
322.949,0,
323.416,0,
323.884,2.77,
324.351,4.13,
324.819,2.37,
325.286,0,
325.753,0,
326.22,3.6,
326.688,3.6,
327.155,3.6,
327.622,2.26,
328.089,2.43,
328.556,2.24,
329.023,2.65,
329.49,3.62,
329.957,2.3,
330.424,2.52,
330.891,3.39,
331.358,0,
331.825,2.99,
332.292,2.83,
332.759,3.01,
333.225,3.28,
333.692,2.79,
334.159,2.29,
334.626,2.38,
335.092,3.42,
335.559,2.21,
336.026,0,
336.492,4.22,
336.959,3.65,
337.425,2.62,
337.892,3.05,
338.358,2.92,
338.824,2.85,
339.291,0,
339.757,2.53,
340.223,2.8,
340.69,0,
341.156,3.15,
341.622,2.46,
342.088,2.22,
342.555,2.83,
343.021,0,
343.487,2.8,
343.953,2.71,
344.419,0,
344.885,0,
345.351,3.02,
345.817,2.43,
346.283,2.92,
346.749,2.97,
347.214,0,
347.68,2.96,
348.146,2.65,
348.612,2.88,
349.077,0,
349.543,2.88,
350.009,2.68,
350.474,4.32,
350.94,4.33,
351.406,0,
351.871,2.67,
352.337,2.5,
352.802,0,
353.268,2.64,
353.733,2.94,
354.198,3.37,
354.664,2.55,
355.129,2.61,
355.594,2.97,
356.06,4.31,
356.525,0,
356.99,2.7,
357.455,2.66,
357.92,3.07,
358.385,3.06,
358.851,0,
359.316,2.5,
359.781,2.22,
360.246,4.29,
360.711,3.14,
361.175,3.15,
361.64,2.64,
362.105,2.73,
362.57,4.31,
363.035,2.52,
363.5,2.9,
363.964,2.55,
364.429,0,
364.894,0,
365.358,3.49,
365.823,0,
366.288,2.71,
366.752,0,
367.217,2.47,
367.681,2.39,
368.146,2.71,
368.61,2.88,
369.074,2.75,
369.539,2.47,
370.003,2.46,
370.467,0,
370.932,2.84,
371.396,2.53,
371.86,2.56,
372.324,0,
372.789,2.58,
373.253,2.51,
373.717,2.9,
374.181,3.73,
374.645,3,
375.109,2.66,
375.573,2.46,
376.037,3.24,
376.501,2.79,
376.965,2.69,
377.428,2.4,
377.892,0,
378.356,0,
378.82,3.16,
379.284,2.58,
379.747,0,
380.211,0,
380.675,3.01,
381.138,2.78,
381.602,2.78,
382.065,3.5,
382.529,0,
382.992,2.54,
383.456,2.38,
383.919,2.92,
384.383,0,
384.846,3.77,
385.309,2.74,
385.773,2.85,
386.236,0,
386.699,2.72,
387.162,3.54,
387.626,0,
388.089,0,
388.552,2.91,
389.015,3,
389.478,2.94,
389.941,3.37,
390.404,0,
390.867,2.6,
391.33,2.67,
391.793,4.31,
392.256,2.77,
392.719,2.66,
393.182,2.38,
393.644,0,
394.107,3.04,
394.57,2.6,
395.033,0,
395.495,0,
395.958,3.14,
396.42,0,
396.883,2.56,
397.346,2.96,
397.808,3.04,
398.271,2.63,
398.733,2.69,
399.196,2.7,
399.658,0,
400.12,0,
400.583,2.47,
401.045,2.64,
401.507,0,
401.97,3.37,
402.432,2.54,
402.894,2.6,
403.356,0,
403.818,0,
404.28,3.1,
404.743,2.72,
405.205,3.54,
405.667,2.48,
406.129,3.19,
406.591,2.49,
407.053,2.66,
407.514,0,
407.976,2.86,
408.438,2.4,
408.9,2.41,
409.362,0,
409.823,2.7,
410.285,2.69,
410.747,3.23,
411.209,0,
411.67,0,
412.132,2.58,
412.593,2.54,
413.055,3.35,
413.516,3.74,
413.978,3.14,
414.439,2.54,
414.901,0,
415.362,2.98,
415.824,2.98,
416.285,2.36,
416.746,2.66,
417.208,0,
417.669,3.46,
418.13,2.67,
418.591,2.64,
419.052,0,
419.514,0,
419.975,3.31,
420.436,2.35,
420.897,0,
421.358,3.24,
421.819,2.98,
422.28,2.89,
422.741,2.58,
423.202,0,
423.662,3.17,
424.123,2.32,
424.584,3.16,
425.045,2.86,
425.506,2.49,
425.966,2.35,
426.427,2.67,
426.888,2.99,
427.348,2.7,
427.809,2.84,
428.27,0,
428.73,2.59,
429.191,2.42,
429.651,3.28,
430.112,2.55,
430.572,3.57,
431.032,2.64,
431.493,3.55,
431.953,3.26,
432.414,3.36,
432.874,2.85,
433.334,2.95,
433.794,2.58,
434.254,2.56,
434.715,0,
435.175,2.71,
435.635,2.48,
436.095,2.55,
436.555,0,
437.015,0,
437.475,4.3,
437.935,2.63,
438.395,2.94,
438.855,3.72,
439.315,2.88,
439.775,2.4,
440.234,2.42,
440.694,0,
441.154,2.68,
441.614,2.61,
442.073,2.97,
442.533,3.1,
442.993,2.52,
443.452,2.53,
443.912,2.43,
444.372,0,
444.831,2.64,
445.291,2.35,
445.75,2.55,
446.21,0,
446.669,0,
447.128,2.59,
447.588,0,
448.047,2.59,
448.506,0,
448.966,0,
449.425,2.26,
449.884,2.46,
450.343,2.63,
450.802,2.52,
451.262,2.29,
451.721,3.27,
452.18,3.16,
452.639,3.01,
453.098,2.47,
453.557,2.48,
454.016,3,
454.475,2.79,
454.934,2.33,
455.392,2.25,
455.851,3.27,
456.31,2.74,
456.769,2.84,
457.228,2.81,
457.686,0,
458.145,0,
458.604,2.52,
459.062,2.85,
459.521,3.06,
459.98,2.92,
460.438,2.8,
460.897,2.76,
461.355,2.81,
461.814,2.77,
462.272,0,
462.731,3.79,
463.189,4.36,
463.647,0,
464.106,3.56,
464.564,2.74,
465.022,3.22,
465.481,2.91,
465.939,3.1,
466.397,3.34,
466.855,2.71,
467.313,2.7,
467.771,3.39,
468.229,3.17,
468.687,2.47,
469.145,2.76,
469.603,3.43,
470.061,2.92,
470.519,2.8,
470.977,3,
471.435,3.56,
471.893,2.85,
472.351,2.83,
472.809,3.95,
473.266,0,
473.724,3.11,
474.182,2.61,
474.64,2.88,
475.097,0,
475.555,2.91,
476.012,3.4,
476.47,2.77,
476.928,2.7,
477.385,0,
477.843,0,
478.3,3.14,
478.757,3.2,
479.215,0,
479.672,2.65,
480.13,2.43,
480.587,2.5,
481.044,3.13,
481.501,2.98,
481.959,2.62,
482.416,3.08,
482.873,2.54,
483.33,2.75,
483.787,3,
484.244,2.51,
484.701,3.5,
485.159,3.16,
485.616,3.18,
486.072,2.99,
486.529,2.84,
486.986,0,
487.443,3.68,
487.9,2.55,
488.357,2.59,
488.814,3.18,
489.271,3.53,
489.727,3.04,
490.184,2.85,
490.641,4.48,
491.097,2.78,
491.554,2.46,
492.011,2.6,
492.467,2.53,
492.924,3.29,
493.38,2.75,
493.837,2.71,
494.293,2.57,
494.75,3.34,
495.206,2.67,
495.663,2.76,
496.119,2.75,
496.575,2.73,
497.032,2.35,
497.488,2.54,
497.944,0,
498.4,2.65,
498.857,2.84,
499.313,3.04,
499.769,2.78,
500.225,2.62,
500.681,0,
501.137,2.77,
501.593,2.45,
502.049,2.53,
502.505,3.21,
502.961,2.7,
503.417,2.56,
503.873,3.12,
504.329,2.7,
504.785,0,
505.241,2.47,
505.696,2.71,
506.152,2.84,
506.608,0,
507.064,2.82,
507.519,2.52,
507.975,2.82,
508.431,0,
508.886,3.56,
509.342,2.81,
509.797,2.51,
510.253,2.78,
510.708,2.63,
511.164,2.38,
511.619,2.55,
512.075,2.73,
512.53,0,
512.985,2.56,
513.441,2.86,
513.896,2.54,
514.351,2.63,
514.806,2.47,
515.262,2.42,
515.717,2.5,
516.172,2.71,
516.627,2.39,
517.082,2.63,
517.537,2.75,
517.992,2.81,
518.447,2.53,
518.902,2.35,
519.357,2.59,
519.812,2.71,
520.267,2.31,
520.722,2.32,
521.177,2.28,
521.632,2.5,
522.087,3.38,
522.541,2.45,
522.996,2.3,
523.451,2.83,
523.906,2.6,
524.36,2.35,
524.815,2.2,
525.27,2.61,
525.724,2.53,
526.179,2.41,
526.633,2.4,
527.088,3.23,
527.542,2.59,
527.997,2.4,
528.451,2.3,
528.906,2.41,
529.36,2.47,
529.814,2.66,
530.269,2.42,
530.723,2.46,
531.177,2.25,
531.631,2.44,
532.086,2.34,
532.54,2.31,
532.994,2.52,
533.448,2.54,
533.902,2.2,
534.356,2.26,
534.81,2.46,
535.264,2.32,
535.718,2.38,
536.172,2.27,
536.626,2.29,
537.08,2.2,
537.534,2.41,
537.988,2.19,
538.442,2.34,
538.896,2.33,
539.349,2.29,
539.803,2.14,
540.257,2.15,
540.711,2.39,
541.164,2.4,
541.618,2.3,
542.072,2.07,
542.525,2.2,
542.979,2.26,
543.432,2.1,
543.886,2.04,
544.339,2.05,
544.793,2.13,
545.246,2.09,
545.7,2.1,
546.153,2.11,
546.606,2.17,
547.06,2.09,
547.513,2,
547.966,1.97,
548.42,1.99,
548.873,2.02,
549.326,1.98,
549.779,1.99,
550.232,2.02,
550.685,2.01,
551.138,2.01,
551.592,1.97,
552.045,2.01,
552.498,2.08,
552.951,2.06,
553.404,1.95,
553.856,1.95,
554.309,1.97,
554.762,1.92,
555.215,1.89,
555.668,1.91,
556.121,1.89,
556.574,1.92,
557.026,1.84,
557.479,1.9,
557.932,1.92,
558.384,2,
558.837,1.89,
559.29,1.86,
559.742,1.8,
560.195,1.88,
560.647,1.83,
561.1,1.85,
561.552,1.86,
562.005,1.84,
562.457,1.77,
562.91,1.74,
563.362,1.78,
563.814,1.76,
564.267,1.76,
564.719,1.7,
565.171,1.75,
565.624,1.74,
566.076,1.75,
566.528,1.67,
566.98,1.73,
567.432,1.74,
567.884,1.78,
568.337,1.7,
568.789,1.71,
569.241,1.71,
569.693,1.72,
570.145,1.73,
570.597,1.7,
571.049,1.67,
571.5,1.68,
571.952,1.64,
572.404,1.64,
572.856,1.64,
573.308,1.61,
573.76,1.67,
574.211,1.62,
574.663,1.61,
575.115,1.63,
575.567,1.62,
576.018,1.61,
576.47,1.59,
576.921,1.57,
577.373,1.62,
577.825,1.56,
578.276,1.57,
578.728,1.59,
579.179,1.54,
579.63,1.54,
580.082,1.52,
580.533,1.56,
580.985,1.53,
581.436,1.55,
581.887,1.5,
582.339,1.52,
582.79,1.56,
583.241,1.54,
583.692,1.5,
584.144,1.5,
584.595,1.48,
585.046,1.48,
585.497,1.47,
585.948,1.46,
586.399,1.49,
586.85,1.47,
587.301,1.47,
587.752,1.44,
588.203,1.44,
588.654,1.46,
589.105,1.43,
589.556,1.41,
590.007,1.43,
590.457,1.43,
590.908,1.44,
591.359,1.4,
591.81,1.39,
592.261,1.42,
592.711,1.41,
593.162,1.38,
593.613,1.38,
594.063,1.37,
594.514,1.38,
594.964,1.36,
595.415,1.36,
595.865,1.37,
596.316,1.38,
596.766,1.36,
597.217,1.37,
597.667,1.34,
598.118,1.35,
598.568,1.32,
599.018,1.31,
599.469,1.32,
599.919,1.34,
600.369,1.33,
600.82,1.3,
601.27,1.29,
601.72,1.31,
602.17,1.29,
602.62,1.29,
603.07,1.29,
603.52,1.28,
603.971,1.29,
604.421,1.27,
604.871,1.27,
605.321,1.27,
605.771,1.27,
606.221,1.27,
606.67,1.25,
607.12,1.26,
607.57,1.26,
608.02,1.26,
608.47,1.25,
608.92,1.24,
609.369,1.23,
609.819,1.23,
610.269,1.22,
610.719,1.22,
611.168,1.23,
611.618,1.22,
612.067,1.22,
612.517,1.19,
612.967,1.2,
613.416,1.21,
613.866,1.2,
614.315,1.18,
614.765,1.19,
615.214,1.2,
615.663,1.19,
616.113,1.17,
616.562,1.16,
617.012,1.16,
617.461,1.17,
617.91,1.16,
618.359,1.16,
618.809,1.15,
619.258,1.16,
619.707,1.16,
620.156,1.16,
620.605,1.14,
621.055,1.16,
621.504,1.14,
621.953,1.14,
622.402,1.14,
622.851,1.13,
623.3,1.13,
623.749,1.12,
624.198,1.14,
624.647,1.13,
625.095,1.13,
625.544,1.13,
625.993,1.12,
626.442,1.11,
626.891,1.1,
627.34,1.11,
627.788,1.1,
628.237,1.1,
628.686,1.11,
629.134,1.08,
629.583,1.08,
630.032,1.09,
630.48,1.09,
630.929,1.09,
631.377,1.08,
631.826,1.09,
632.274,1.08,
632.723,1.07,
633.171,1.06,
633.62,1.06,
634.068,1.07,
634.516,1.05,
634.965,1.05,
635.413,1.06,
635.861,1.06,
636.31,1.05,
636.758,1.05,
637.206,1.04,
637.654,1.04,
638.103,1.04,
638.551,1.06,
638.999,1.03,
639.447,1.04,
639.895,1.05,
640.343,1.03,
640.791,1.02,
641.239,1.02,
641.687,1.02,
642.135,1.03,
642.583,1.02,
643.031,1.01,
643.479,1.02,
643.927,1.01,
644.374,1.01,
644.822,1,
645.27,1.01,
645.718,1.01,
646.166,0.98,
646.613,1,
647.061,0.99,
647.509,0.99,
647.956,0.98,
648.404,0.98,
648.851,0.98,
649.299,0.98,
649.747,0.97,
650.194,0.95,
650.642,0.96,
651.089,0.98,
651.537,0.98,
651.984,0.97,
652.431,0.96,
652.879,0.96,
653.326,0.96,
653.773,0.96,
654.221,0.95,
654.668,0.94,
655.115,0.96,
655.562,0.95,
656.01,0.93,
656.457,0.94,
656.904,0.95,
657.351,0.95,
657.798,0.93,
658.245,0.93,
658.692,0.94,
659.139,0.93,
659.586,0.93,
660.033,0.92,
660.48,0.93,
660.927,0.93,
661.374,0.92,
661.821,0.9,
662.268,0.91,
662.715,0.93,
663.162,0.92,
663.608,0.91,
664.055,0.9,
664.502,0.91,
664.949,0.91,
665.395,0.9,
665.842,0.9,
666.289,0.91,
666.735,0.91,
667.182,0.89,
667.629,0.89,
668.075,0.9,
668.522,0.9,
668.968,0.89,
669.415,0.9,
669.861,0.88,
670.308,0.89,
670.754,0.89,
671.2,0.88,
671.647,0.89,
672.093,0.9,
672.539,0.89,
672.986,0.87,
673.432,0.87,
673.878,0.88,
674.324,0.88,
674.771,0.88,
675.217,0.88,
675.663,0.88,
676.109,0.88,
676.555,0.86,
677.001,0.87,
677.447,0.88,
677.893,0.87,
678.339,0.86,
678.785,0.87,
679.231,0.86,
679.677,0.87,
680.123,0.86,
680.569,0.85,
681.015,0.86,
681.461,0.86,
681.907,0.87,
682.353,0.84,
682.798,0.86,
683.244,0.87,
683.69,0.85,
684.135,0.85,
684.581,0.84,
685.027,0.85,
685.472,0.85,
685.918,0.83,
686.364,0.83,
686.809,0.84,
687.255,0.84,
687.7,0.84,
688.146,0.84,
688.591,0.83,
689.037,0.83,
689.482,0.83,
689.928,0.82,
690.373,0.83,
690.818,0.83,
691.264,0.83,
691.709,0.83,
692.154,0.82,
692.6,0.82,
693.045,0.82,
693.49,0.83,
693.935,0.82,
694.38,0.81,
694.825,0.82,
695.271,0.82,
695.716,0.82,
696.161,0.81,
696.606,0.82,
697.051,0.82,
697.496,0.81,
697.941,0.81,
698.386,0.81,
698.831,0.81,
699.276,0.8,
699.721,0.81,
700.165,0.8,
700.61,0.81,
701.055,0.8,
701.5,0.79,
701.945,0.8,
702.389,0.8,
702.834,0.8,
703.279,0.81,
703.724,0.8,
704.168,0.8,
704.613,0.79,
705.058,0.79,
705.502,0.79,
705.947,0.8,
706.391,0.79,
706.836,0.79,
707.28,0.79,
707.725,0.79,
708.169,0.8,
708.614,0.78,
709.058,0.78,
709.502,0.78,
709.947,0.79,
710.391,0.78,
710.835,0.79,
711.28,0.79,
711.724,0.79,
712.168,0.79,
712.613,0.77,
713.057,0.78,
713.501,0.78,
713.945,0.77,
714.389,0.78,
714.833,0.78,
715.277,0.79,
715.722,0.77,
716.166,0.77,
716.61,0.77,
717.054,0.78,
717.498,0.77,
717.942,0.78,
718.385,0.78,
718.829,0.77,
719.273,0.77,
719.717,0.76,
720.161,0.76,
720.605,0.77,
721.049,0.75,
721.492,0.76,
721.936,0.76,
722.38,0.76,
722.824,0.76,
723.267,0.77,
723.711,0.76,
724.155,0.76,
724.598,0.75,
725.042,0.75,
725.485,0.76,
725.929,0.75,
726.372,0.76,
726.816,0.75,
727.259,0.75,
727.703,0.76,
728.146,0.75,
728.59,0.76,
729.033,0.75,
729.476,0.75,
729.92,0.76,
730.363,0.75,
730.806,0.74,
731.25,0.74,
731.693,0.75,
732.136,0.74,
732.579,0.74,
733.023,0.73,
733.466,0.74,
733.909,0.75,
734.352,0.74,
734.795,0.72,
735.238,0.74,
735.681,0.73,
736.124,0.73,
736.567,0.72,
737.01,0.73,
737.453,0.72,
737.896,0.72,
738.339,0.72,
738.782,0.72,
739.225,0.7,
739.668,0.71,
740.111,0.71,
740.553,0.7,
740.996,0.69,
741.439,0.7,
741.882,0.69,
742.325,0.68,
742.767,0.68,
743.21,0.69,
743.653,0.68,
744.095,0.68,
744.538,0.67,
744.98,0.66,
745.423,0.65,
745.866,0.66,
746.308,0.65,
746.751,0.65,
747.193,0.65,
747.635,0.64,
748.078,0.62,
748.52,0.62,
748.963,0.62,
749.405,0.61,
749.847,0.6,
750.29,0.59,
750.732,0.59,
751.174,0.58,
751.617,0.57,
752.059,0.56,
752.501,0.56,
752.943,0.55,
753.385,0.53,
753.828,0.52,
754.27,0.51,
754.712,0.51,
755.154,0.5,
755.596,0.49,
756.038,0.48,
756.48,0.48,
756.922,0.47,
757.364,0.45,
757.806,0.45,
758.248,0.44,
758.69,0.42,
759.132,0.42,
759.574,0.41,
760.016,0.41,
760.457,0.39,
760.899,0.38,
761.341,0.37,
761.783,0.36,
762.224,0.36,
762.666,0.35,
763.108,0.33,
763.55,0.34,
763.991,0.32,
764.433,0.31,
764.874,0.31,
765.316,0.3,
765.758,0.3,
766.199,0.3,
766.641,0.28,
767.082,0.27,
767.524,0.27,
767.965,0.26,
768.407,0.26,
768.848,0.26,
769.289,0.25,
769.731,0.24,
770.172,0.24,
770.613,0.24,
771.055,0.22,
771.496,0.23,
771.937,0.22,
772.379,0.22,
772.82,0.21,
773.261,0.22,
773.702,0.2,
774.143,0.2,
774.584,0.2,
775.026,0.19,
775.467,0.2,
775.908,0.19,
776.349,0.19,
776.79,0.18,
777.231,0.19,
777.672,0.18,
778.113,0.18,
778.554,0.18,
778.995,0.19,
779.436,0.17,
779.876,0.18,
780.317,0.18,
780.758,0.18,
781.199,0.17,
781.64,0.17,
782.081,0.17,
782.521,0.17,
782.962,0.16,
783.403,0.17,
783.843,0.17,
784.284,0.16,
784.725,0.16,
785.165,0.16,
785.606,0.16,
786.047,0.16,
786.487,0.16,
786.928,0.16,
787.368,0.16,
787.809,0.16,
788.249,0.16,
788.69,0.15,
789.13,0.15,
789.571,0.16,
790.011,0.15,
790.451,0.15,
790.892,0.16,
791.332,0.16,
791.772,0.15,
792.213,0.16,
792.653,0.14,
793.093,0.15,
793.533,0.15,
793.974,0.16,
794.414,0.15,
794.854,0.15,
795.294,0.15,
795.734,0.15,
796.174,0.15,
796.614,0.15,
797.054,0.15,
797.494,0.15,
797.934,0.15,
798.374,0.15,
798.814,0.15,
799.254,0.14,
799.694,0.14,
800.134,0.14,
800.574,0.15,
801.014,0.14,
801.454,0.14,
801.894,0.16,
802.334,0.14,
802.773,0.15,
803.213,0.15,
803.653,0.14,
804.093,0.14,
804.532,0.14,
804.972,0.14,
805.412,0.14,
805.851,0.14,
806.291,0.14,
806.731,0.14,
807.17,0.14,
807.61,0.14,
808.049,0.14,
808.489,0.14,
808.928,0.14,
809.368,0.13,
809.807,0.15,
810.247,0.14,
810.686,0.14,
811.125,0.14,
811.565,0.13,
812.004,0.13,
812.444,0.15,
812.883,0.15,
813.322,0.14,
813.761,0.14,
814.201,0.14,
814.64,0.14,
815.079,0.13,
815.518,0.14,
815.958,0.14,
816.397,0.13,
816.836,0.14,
817.275,0.14,
817.714,0.14,
818.153,0.14,
818.592,0.14,
819.031,0.14,
819.47,0.14,
819.909,0.14,
820.348,0.14,
820.787,0.14,
821.226,0.14,
821.665,0.13,
822.104,0.14,
822.543,0.13,
822.982,0.14,
823.42,0.13,
823.859,0.13,
824.298,0.13,
824.737,0.13,
825.176,0.14,
825.614,0.13,
826.053,0.13,
826.492,0.13,
826.93,0.14,
827.369,0.14,
827.808,0.14,
828.246,0.13,
828.685,0.14,
829.123,0.14,
829.562,0.13,
830,0.13,
830.439,0.14,
830.877,0.13,
831.316,0.14,
831.754,0.14,
832.193,0.13,
832.631,0.13,
833.07,0.13,
833.508,0.13,
833.946,0.13,
834.385,0.13,
834.823,0.13,
835.261,0.14,
835.7,0.13,
836.138,0.12,
836.576,0.13,
837.014,0.13,
837.452,0.14,
837.891,0.14,
838.329,0.13,
838.767,0.13,
839.205,0.13,
839.643,0.13,
840.081,0.12,
840.519,0.11,
840.957,0.13,
841.395,0.13,
841.833,0.12,
842.271,0.12,
842.709,0.13,
843.147,0.13,
843.585,0.13,
844.023,0.13,
844.461,0.12,
844.899,0.12,
845.336,0.12,
845.774,0.13,
846.212,0.12,
846.65,0.12,
847.088,0.13,
847.525,0.13,
847.963,0.12,
848.401,0.13,
848.838,0.13,
849.276,0.13,
849.714,0.12,
850.151,0.12,
850.589,0.12,
851.026,0.13,
851.464,0.13,
851.902,0.12,
852.339,0.12,
852.777,0.12,
853.214,0.12,
853.651,0.12,
854.089,0.12,
854.526,0.12,
854.964,0.12,
855.401,0.11,
855.838,0.12,
856.276,0.12,
856.713,0.12,
857.15,0.12,
857.588,0.12,
858.025,0.12,
858.462,0.12,
858.899,0.12,
859.337,0.11,
859.774,0.12,
860.211,0.12,
860.648,0.12,
861.085,0.11,
861.522,0.11,
861.959,0.12,
862.397,0.11,
862.834,0.12,
863.271,0.12,
863.708,0.12,
864.145,0.12,
864.582,0.11,
865.019,0.11,
865.456,0.12,
865.892,0.12,
866.329,0.11,
866.766,0.12,
867.203,0.12,
867.64,0.11,
868.077,0.12,
868.514,0.1,
868.95,0.11,
869.387,0.11,
869.824,0.12,
870.261,0.11,
870.697,0.11,
871.134,0.11,
871.571,0.12,
872.007,0.11,
872.444,0.1,
872.88,0.11,
873.317,0.11,
873.754,0.11,
874.19,0.11,
874.627,0.11,
875.063,0.11,
875.5,0.11,
875.936,0.11,
876.373,0.11,
876.809,0.11,
877.246,0.11,
877.682,0.11,
878.118,0.11,
878.555,0.1,
878.991,0.11,
879.427,0.1,
879.864,0.1,
880.3,0.1,
880.736,0.11,
881.172,0.1,
881.609,0.1,
882.045,0.1,
882.481,0.11,
882.917,0.1,
883.353,0.1,
883.79,0.11,
884.226,0.1,
884.662,0.1,
885.098,0.1,
885.534,0.1,
885.97,0.11,
886.406,0.1,
886.842,0.1,
887.278,0.09,
887.714,0.1,
888.15,0.1,
888.586,0.09,
889.022,0.09,
889.458,0.09,
889.893,0.08,
890.329,0.09,
890.765,0.08,
891.201,0.09,
891.637,0.08,
892.073,0.08,
892.508,0.08,
892.944,0.08,
893.38,0.08,
893.816,0.07,
894.251,0.07,
894.687,0.07,
895.123,0.07,
895.558,0.07,
895.994,0.07,
896.429,0.07,
896.865,0.07,
897.301,0.07,
897.736,0.07,
898.172,0.06,
898.607,0.06,
899.043,0.07,
899.478,0.07,
899.913,0.06,
900.349,0.07,
900.784,0.07,
901.22,0.07,
901.655,0.07,
902.09,0.06,
902.526,0.07,
902.961,0.07,
903.396,0.07,
903.832,0.06,
904.267,0.07,
904.702,0.07,
905.137,0.07,
905.573,0.07,
906.008,0.07,
906.443,0.07,
906.878,0.07,
907.313,0.07,
907.748,0.07,
908.183,0.07,
908.619,0.08,
909.054,0.07,
909.489,0.07,
909.924,0.08,
910.359,0.07,
910.794,0.08,
911.229,0.08,
911.664,0.07,
912.099,0.08,
912.533,0.08,
912.968,0.08,
913.403,0.08,
913.838,0.08,
914.273,0.08,
914.708,0.08,
915.143,0.08,
915.577,0.08,
916.012,0.08,
916.447,0.08,
916.882,0.08,
917.316,0.08,
917.751,0.08,
918.186,0.09,
918.62,0.09,
919.055,0.09,
919.49,0.09,
919.924,0.09,
920.359,0.08,
920.793,0.08,
921.228,0.09,
921.663,0.09,
922.097,0.08,
922.532,0.08,
922.966,0.09,
923.4,0.09,
923.835,0.09,
924.269,0.08,
924.704,0.08,
925.138,0.09,
925.573,0.09,
926.007,0.09,
926.441,0.09,
926.876,0.09,
927.31,0.08,
927.744,0.08,
928.178,0.09,
928.613,0.09,
929.047,0.08,
929.481,0.09,
929.915,0.09,
930.35,0.09,
930.784,0.09,
931.218,0.09,
931.652,0.08,
932.086,0.08,
932.52,0.09,
932.954,0.09,
933.388,0.09,
933.822,0.09,
934.256,0.09,
934.69,0.09,
935.124,0.09,
935.558,0.09,
935.992,0.09,
936.426,0.08,
936.86,0.09,
937.294,0.09,
937.728,0.1,
938.162,0.09,
938.596,0.09,
939.029,0.08,
939.463,0.09,
939.897,0.09,
940.331,0.09,
940.765,0.09,
941.198,0.09,
941.632,0.09,
942.066,0.1,
942.499,0.1,
942.933,0.08,
943.367,0.1,
943.8,0.09,
944.234,0.09,
944.668,0.09,
945.101,0.08,
945.535,0.09,
945.968,0.08,
946.402,0.09,
946.835,0.09,
947.269,0.08,
947.702,0.08,
948.136,0.08,
948.569,0.09,
949.003,0.08,
949.436,0.09,
949.869,0.09,
950.303,0.1,
950.736,0.09,
951.17,0.08,
951.603,0.09,
952.036,0.08,
952.469,0.09,
952.903,0.09,
953.336,0.08,
953.769,0.09,
954.202,0.1,
954.636,0.09,
955.069,0.09,
955.502,0.08,
955.935,0.1,
956.368,0.08,
956.801,0.09,
957.234,0.09,
957.668,0.09,
958.101,0.09,
958.534,0.08,
958.967,0.09,
959.4,0.09,
959.833,0.09,
960.266,0.09,
960.699,0.09,
961.132,0.09,
961.565,0.09,
961.997,0.09,
962.43,0.09,
962.863,0.09,
963.296,0.09,
963.729,0.09,
964.162,0.09,
964.595,0.09,
965.027,0.09,
965.46,0.09,
965.893,0.08,
966.326,0.09,
966.758,0.08,
967.191,0.08,
967.624,0.09,
968.056,0.08,
968.489,0.08,
968.922,0.08,
969.354,0.09,
969.787,0.08,
970.22,0.1,
970.652,0.09,
971.085,0.08,
971.517,0.09,
971.95,0.08,
972.382,0.09,
972.815,0.1,
973.247,0.09,
973.68,0.08,
974.112,0.08,
974.545,0.09,
974.977,0.1,
975.409,0.08,
975.842,0.09,
976.274,0.08,
976.707,0.08,
977.139,0.09,
977.571,0.08,
978.003,0.08,
978.436,0.08,
978.868,0.09,
979.3,0.09,
979.732,0.1,
980.165,0.09,
980.597,0.08,
981.029,0.09,
981.461,0.08,
981.893,0.08,
982.325,0.08,
982.758,0.08,
983.19,0.08,
983.622,0.08,
984.054,0.08,
984.486,0.09,
984.918,0.09,
985.35,0.09,
985.782,0.08,
986.214,0.08,
986.646,0.1,
987.078,0.1,
987.51,0.1,
987.942,0.08,
988.373,0.1,
988.805,0.09,
989.237,0.08,
989.669,0.09,
990.101,0.09,
990.533,0.09,
990.965,0.08,
991.396,0.08,
991.828,0.08,
992.26,0.08,
992.692,0.08,
993.123,0.08,
993.555,0.1,
993.987,0.09,
994.418,0.08,
994.85,0.08,
995.282,0.09,
995.713,0.07,
996.145,0.09,
996.576,0.1,
997.008,0.09,
997.44,0.08,
997.871,0.08,
998.303,0.09,
998.734,0.07,
999.166,0.08,
999.597,0.07,
1000.029,0.08,
1000.46,0.08,
1000.891,0.08,
1001.323,0.08,
1001.754,0.09,
1002.186,0.1,
1002.617,0.08,
1003.048,0.09,
1003.48,0.1,
1003.911,0.07,
1004.342,0.08,
1004.774,0.09,
1005.205,0.08,
1005.636,0.08,
1006.067,0.08,
1006.498,0.09,
1006.93,0.08,
1007.361,0.09,
1007.792,0.06,
1008.223,0.06,
1008.654,0.07,
1009.085,0.08,
1009.517,0.08,
1009.948,0.07,
1010.379,0.07,
1010.81,0.07,
1011.241,0.07,
1011.672,0.06,
1012.103,0.06,
1012.534,0.09,
1012.965,0.08,
1013.396,0.06,
1013.827,0.07,
1014.258,0.08,
1014.689,0.08,
1015.12,0.07,
1015.55,0.08,
1015.981,0.07,
1016.412,0.09,
1016.843,0.07,
1017.274,0.07,
1017.705,0.09,
1018.135,0.08,
1018.566,0.06,
1018.997,0.09,
1019.428,0.09,
1019.858,0.07,
1020.289,0.07,
1020.72,0.07,
1021.15,0.09,
1021.581,0.08,
1022.012,0.08,
1022.442,0.08,
1022.873,0.06,
1023.304,0.07,
1023.734,0.08,
1024.165,0.06,
1024.595,0.08,
1025.026,0.07,
1025.456,0.07,
1025.887,0.06,
1026.317,0.06,
1026.748,0.08,
1027.178,0.09,
1027.609,0.07,
1028.039,0.06,
1028.47,0.06,
1028.9,0.09,
1029.331,0.08,
1029.761,0.06,
1030.191,0.07,
1030.622,0.07,
1031.052,0.07,
1031.482,0.07,
1031.913,0.07,
1032.343,0.07,
1032.773,0.07,
1033.203,0.07,
1033.634,0.04,
1034.064,0.07,
1034.494,0.06,
1034.924,0.07,
1035.354,0.06,
1035.784,0.06,
1036.215,0.07,
1036.645,0.04,
1037.075,0.05,
1037.505,0.05,
1037.935,0.07,
1038.365,0.07,
1038.795,0.06,
1039.225,0.09,
1039.655,0.05,
1040.085,0.06,
1040.515,0.04,
1040.945,0.06,
1041.375,0.05,
1041.805,0.04,
1042.235,0.04,
1042.665,0.05,
1043.095,0.06,
1043.525,0.06,
1043.955,0.06,
1044.384,0.06,
1044.814,0.06,
1045.244,0.04,
1045.674,0.06,
1046.104,0.08,
1046.534,0.04,
1046.963,0.06,
1047.393,0.07,
1047.823,0.07,
1048.252,0.07,
1048.682,0.05,
1049.112,0.06,
1049.542,0.06,
1049.971,0.06,
1050.401,0.05,
1050.831,0.07,
1051.26,0.04,
1051.69,0.05,
1052.119,0.04,
1052.549,0.08,
1052.978,0.06,
1053.408,0,
1053.838,0.08,
1054.267,0.1,
1054.697,0.06,
1055.126,0.03,
1055.555,0.07,
1055.985,0.04,
1056.414,0.06,
1056.844,0.04,
1057.273,0.01,
1057.703,0.03,
1058.132,0.06,
1058.561,0.04,
1058.991,0.06,
1059.42,0.01,
1059.849,0.06,
1060.279,0.01,
1060.708,0.06,
1061.137,0.06,
1061.566,0.01,
1061.996,0.07,
1062.425,0.04,
1062.854,0.04,
1063.283,0.06,
1063.713,0.05,
1064.142,0.02,
1064.571,0,
1065,0.05,
1065.429,0.1,
1065.858,0.05,
1066.287,0,
1066.716,0.08,
1067.146,0.01,
1067.575,0.06,
1068.004,-0.01,
1068.433,0.01,
1068.862,0.08,
1069.291,0.05,
1069.72,0.01,
1070.149,0.04,
1070.578,0.06,
1071.007,0.05,
1071.435,0.08,
1071.864,0.01,
1072.293,0.02,
1072.722,0.07,
1073.151,0.03,
1073.58,0.05,
1074.009,0.04,
1074.438,0.06,
1074.866,-0.01,
1075.295,0.04,
1075.724,0.09,
1076.153,0.03,
1076.581,0,
1077.01,0,
1077.439,0.02,
1077.868,0.07,
1078.296,0.03,
1078.725,0.01,
1079.154,0.05,
1079.582,0.05,
1080.011,0.08,
1080.44,0.02,
1080.868,0.03,
1081.297,0.06,
1081.725,0.03,
1082.154,-0.02,
1082.583,-0.07,
1083.011,0.03,
1083.44,0.09,
1083.868,0.03,
1084.297,-0.05,
1084.725,0.03,
1085.154,0.01,
1085.582,-0.01,
1086.011,-0.02,
1086.439,-0.04,
1086.867,0.09,
1087.296,0.01,
1087.724,0.01,
1088.153,0.02,
1088.581,0.02,
1089.009,0.06,
1089.438,0.01,
1089.866,0.02,
1090.294,0.07,
1090.723,0.03,
1091.151,0.1,
1091.579,-0.01,
1092.007,0.05,
1092.436,0.09,
1092.864,-0.04,
1093.292,0.08,
1093.72,0.1,
1094.148,0.06,
1094.576,0.05,
1095.005,-0.17,
1095.433,0.05,
1095.861,0.01,
1096.289,0.07,
1096.717,0,
1097.145,-0.01,
1097.573,0.06,
1098.001,0.09,
1098.429,-0.04,
1098.857,0,
1099.285,0.02,
1099.713,0.1,
1100.141,0.13,
1100.569,0.11,
1100.997,-0.06,
1101.425,-0.03,
1101.853,0.05,
1102.281,-0.04,
1102.709,-0.09,
1103.137,0.09,
1103.565,-0.08,
1103.993,0.04,
1104.421,0.17,
1104.848,0.16,
1105.276,0.02,
1105.704,-0.1,
1106.132,-0.14,
1106.56,0.01,
187.928,,2.88
188.405,,2.88
188.882,,2.88
189.359,,-2.12
189.835,,8.88
190.312,,1.88
190.789,,4.88
191.265,,-11.12
191.742,,9.88
192.219,,-0.12
192.695,,4.88
193.172,,-17.12
193.648,,-16.12
194.125,,0.88
194.601,,2.88
195.077,,-19.12
195.554,,13.88
196.03,,14.88
196.506,,0.88
196.983,,-4.12
197.459,,-25.12
197.935,,-9.12
198.411,,-7.12
198.887,,-6.12
199.363,,-17.12
199.839,,-5.12
200.315,,-1.12
200.791,,29.88
201.267,,-12.12
201.743,,9.88
202.219,,16.88
202.695,,3.88
203.171,,-0.12
203.647,,-6.12
204.122,,0.88
204.598,,28.88
205.074,,-13.12
205.549,,-5.12
206.025,,-15.12
206.501,,-4.12
206.976,,-5.12
207.452,,-2.12
207.927,,10.88
208.402,,17.88
208.878,,-3.12
209.353,,-9.12
209.829,,14.88
210.304,,-8.12
210.779,,2.88
211.254,,-2.12
211.73,,2.88
212.205,,29.88
212.68,,11.88
213.155,,-20.12
213.63,,11.88
214.105,,12.88
214.58,,-8.12
215.055,,-5.12
215.53,,11.88
216.005,,16.88
216.48,,-1.12
216.954,,4.88
217.429,,1.88
217.904,,-0.12
218.379,,12.88
218.853,,28.88
219.328,,4.88
219.803,,17.88
220.277,,16.88
220.752,,6.88
221.226,,-4.12
221.701,,-44.12
222.175,,-0.12
222.65,,1.88
223.124,,10.88
223.598,,-3.12
224.073,,-0.12
224.547,,14.88
225.021,,12.88
225.495,,0.88
225.97,,-1.12
226.444,,23.88
226.918,,-12.12
227.392,,12.88
227.866,,-8.12
228.34,,-1.12
228.814,,-8.12
229.288,,-26.12
229.762,,3.88
230.236,,4.88
230.71,,-12.12
231.183,,9.88
231.657,,5.88
232.131,,4.88
232.605,,37.88
233.078,,-5.12
233.552,,-7.12
234.026,,20.88
234.499,,-9.12
234.973,,-7.12
235.446,,4.88
235.92,,-18.12
236.393,,-1.12
236.867,,-0.12
237.34,,-0.12
237.813,,8.88
238.287,,3.88
238.76,,17.88
239.233,,2.88
239.706,,-0.12
240.179,,11.88
240.653,,-14.12
241.126,,-2.12
241.599,,-7.12
242.072,,18.88
242.545,,7.88
243.018,,-10.12
243.491,,-5.12
243.964,,3.88
244.437,,13.88
244.909,,4.88
245.382,,-3.12
245.855,,26.88
246.328,,-3.12
246.8,,-0.12
247.273,,-18.12
247.746,,-5.12
248.218,,4.88
248.691,,3.88
249.163,,16.88
249.636,,-11.12
250.108,,-5.12
250.581,,-8.12
251.053,,10.88
251.526,,-5.12
251.998,,10.88
252.47,,8.88
252.943,,-11.12
253.415,,-14.12
253.887,,0.88
254.359,,-10.12
254.831,,-13.12
255.304,,-24.12
255.776,,18.88
256.248,,1.88
256.72,,2.88
257.192,,9.88
257.664,,7.88
258.136,,8.88
258.607,,-4.12
259.079,,18.88
259.551,,5.88
260.023,,-5.12
260.495,,15.88
260.966,,3.88
261.438,,-12.12
261.91,,6.88
262.381,,4.88
262.853,,6.88
263.325,,-4.12
263.796,,9.88
264.268,,31.88
264.739,,9.88
265.21,,0.88
265.682,,29.88
266.153,,4.88
266.624,,1.88
267.096,,-2.12
267.567,,6.88
268.038,,15.88
268.509,,27.88
268.981,,3.88
269.452,,-23.12
269.923,,10.88
270.394,,20.88
270.865,,-14.12
271.336,,-12.12
271.807,,1.88
272.278,,-4.12
272.749,,18.88
273.22,,6.88
273.69,,7.88
274.161,,-0.12
274.632,,12.88
275.103,,9.88
275.574,,-27.12
276.044,,18.88
276.515,,-5.12
276.985,,1.88
277.456,,-11.12
277.927,,-14.12
278.397,,12.88
278.868,,5.88
279.338,,27.88
279.808,,10.88
280.279,,2.88
280.749,,-6.12
281.219,,1.88
281.69,,0.88
282.16,,4.88
282.63,,-5.12
283.1,,-1.12
283.571,,-7.12
284.041,,-20.12
284.511,,-11.12
284.981,,-23.12
285.451,,-2.12
285.921,,-5.12
286.391,,1.88
286.861,,-17.12
287.331,,11.88
287.8,,11.88
288.27,,19.88
288.74,,6.88
289.21,,4.88
289.68,,-1.12
290.149,,-9.12
290.619,,7.88
291.089,,-13.12
291.558,,6.88
292.028,,12.88
292.497,,9.88
292.967,,-10.12
293.436,,3.88
293.906,,-15.12
294.375,,-25.12
294.845,,-40.12
295.314,,-21.12
295.783,,14.88
296.253,,8.88
296.722,,14.88
297.191,,14.88
297.66,,-5.12
298.129,,24.88
298.598,,1.88
299.068,,-12.12
299.537,,-2.12
300.006,,8.88
300.475,,5.88
300.944,,-8.12
301.413,,3.88
301.881,,9.88
302.35,,-4.12
302.819,,6.88
303.288,,-9.12
303.757,,8.88
304.225,,-2.12
304.694,,4.88
305.163,,13.88
305.632,,2.88
306.1,,2.88
306.569,,7.88
307.037,,-2.12
307.506,,9.88
307.974,,5.88
308.443,,21.88
308.911,,-18.12
309.38,,24.88
309.848,,23.88
310.316,,-20.12
310.785,,-0.12
311.253,,-2.12
311.721,,18.88
312.189,,10.88
312.657,,4.88
313.126,,3.88
313.594,,9.88
314.062,,21.88
314.53,,-12.12
314.998,,2.88
315.466,,6.88
315.934,,20.88
316.402,,-13.12
316.869,,2.88
317.337,,11.88
317.805,,1.88
318.273,,-3.12
318.741,,-19.12
319.208,,5.88
319.676,,-11.12
320.144,,5.88
320.611,,-2.12
321.079,,7.88
321.547,,-4.12
322.014,,13.88
322.482,,-14.12
322.949,,-4.12
323.416,,4.88
323.884,,11.88
324.351,,-12.12
324.819,,6.88
325.286,,15.88
325.753,,4.88
326.22,,16.88
326.688,,15.88
327.155,,21.88
327.622,,12.88
328.089,,-11.12
328.556,,4.88
329.023,,0.88
329.49,,-2.12
329.957,,5.88
330.424,,0.88
330.891,,2.88
331.358,,8.88
331.825,,-0.12
332.292,,-0.12
332.759,,18.88
333.225,,-3.12
333.692,,8.88
334.159,,0.88
334.626,,24.88
335.092,,1.88
335.559,,6.88
336.026,,-11.12
336.492,,-7.12
336.959,,25.88
337.425,,14.88
337.892,,-6.12
338.358,,-13.12
338.824,,7.88
339.291,,12.88
339.757,,24.88
340.223,,11.88
340.69,,-4.12
341.156,,20.88
341.622,,9.88
342.088,,18.88
342.555,,3.88
343.021,,8.88
343.487,,5.88
343.953,,4.88
344.419,,5.88
344.885,,15.88
345.351,,-5.12
345.817,,14.88
346.283,,-1.12
346.749,,7.88
347.214,,7.88
347.68,,9.88
348.146,,-6.12
348.612,,-4.12
349.077,,14.88
349.543,,15.88
350.009,,-11.12
350.474,,14.88
350.94,,25.88
351.406,,6.88
351.871,,-1.12
352.337,,-23.12
352.802,,18.88
353.268,,4.88
353.733,,-11.12
354.198,,29.88
354.664,,4.88
355.129,,0.88
355.594,,0.88
356.06,,-7.12
356.525,,5.88
356.99,,18.88
357.455,,24.88
357.92,,21.88
358.385,,8.88
358.851,,0.88
359.316,,14.88
359.781,,-18.12
360.246,,17.88
360.711,,24.88
361.175,,11.88
361.64,,-16.12
362.105,,15.88
362.57,,3.88
363.035,,32.88
363.5,,6.88
363.964,,26.88
364.429,,0.88
364.894,,15.88
365.358,,11.88
365.823,,4.88
366.288,,14.88
366.752,,33.88
367.217,,9.88
367.681,,1.88
368.146,,0.88
368.61,,22.88
369.074,,6.88
369.539,,4.88
370.003,,9.88
370.467,,2.88
370.932,,31.88
371.396,,2.88
371.86,,10.88
372.324,,9.88
372.789,,0.88
373.253,,15.88
373.717,,-4.12
374.181,,-12.12
374.645,,8.88
375.109,,18.88
375.573,,1.88
376.037,,-24.12
376.501,,20.88
376.965,,19.88
377.428,,-16.12
377.892,,-12.12
378.356,,-1.12
378.82,,5.88
379.284,,19.88
379.747,,1.88
380.211,,0.88
380.675,,10.88
381.138,,30.88
381.602,,9.88
382.065,,-1.12
382.529,,2.88
382.992,,17.88
383.456,,10.88
383.919,,-4.12
384.383,,-2.12
384.846,,28.88
385.309,,5.88
385.773,,19.88
386.236,,6.88
386.699,,9.88
387.162,,-20.12
387.626,,-17.12
388.089,,9.88
388.552,,9.88
389.015,,3.88
389.478,,30.88
389.941,,30.88
390.404,,13.88
390.867,,3.88
391.33,,-17.12
391.793,,19.88
392.256,,5.88
392.719,,9.88
393.182,,12.88
393.644,,19.88
394.107,,-13.12
394.57,,22.88
395.033,,-14.12
395.495,,13.88
395.958,,6.88
396.42,,-4.12
396.883,,5.88
397.346,,10.88
397.808,,9.88
398.271,,10.88
398.733,,14.88
399.196,,-10.12
399.658,,13.88
400.12,,2.88
400.583,,-5.12
401.045,,-7.12
401.507,,24.88
401.97,,20.88
402.432,,7.88
402.894,,6.88
403.356,,8.88
403.818,,5.88
404.28,,18.88
404.743,,57.88
405.205,,139.88
405.667,,301.88
406.129,,339.88
406.591,,299.88
407.053,,195.88
407.514,,73.88
407.976,,21.88
408.438,,23.88
408.9,,3.88
409.362,,29.88
409.823,,16.88
410.285,,13.88
410.747,,8.88
411.209,,15.88
411.67,,25.88
412.132,,-2.12
412.593,,3.88
413.055,,17.88
413.516,,-2.12
413.978,,-6.12
414.439,,1.88
414.901,,13.88
415.362,,-9.12
415.824,,-7.12
416.285,,-2.12
416.746,,12.88
417.208,,16.88
417.669,,-2.12
418.13,,0.88
418.591,,-8.12
419.052,,18.88
419.514,,-11.12
419.975,,-3.12
420.436,,-19.12
420.897,,6.88
421.358,,11.88
421.819,,9.88
422.28,,4.88
422.741,,-0.12
423.202,,32.88
423.662,,33.88
424.123,,-15.12
424.584,,-0.12
425.045,,15.88
425.506,,12.88
425.966,,-6.12
426.427,,-5.12
426.888,,3.88
427.348,,28.88
427.809,,7.88
428.27,,-0.12
428.73,,10.88
429.191,,2.88
429.651,,8.88
430.112,,1.88
430.572,,25.88
431.032,,17.88
431.493,,18.88
431.953,,-11.12
432.414,,-4.12
432.874,,11.88
433.334,,20.88
433.794,,-13.12
434.254,,11.88
434.715,,30.88
435.175,,21.88
435.635,,10.88
436.095,,19.88
436.555,,16.88
437.015,,15.88
437.475,,-10.12
437.935,,3.88
438.395,,21.88
438.855,,11.88
439.315,,5.88
439.775,,25.88
440.234,,0.88
440.694,,23.88
441.154,,-7.12
441.614,,-4.12
442.073,,6.88
442.533,,2.88
442.993,,7.88
443.452,,-18.12
443.912,,-0.12
444.372,,28.88
444.831,,17.88
445.291,,14.88
445.75,,34.88
446.21,,18.88
446.669,,29.88
447.128,,20.88
447.588,,1.88
448.047,,-0.12
448.506,,10.88
448.966,,11.88
449.425,,9.88
449.884,,16.88
450.343,,21.88
450.802,,24.88
451.262,,7.88
451.721,,4.88
452.18,,28.88
452.639,,22.88
453.098,,18.88
453.557,,-0.12
454.016,,20.88
454.475,,0.88
454.934,,6.88
455.392,,-6.12
455.851,,26.88
456.31,,10.88
456.769,,10.88
457.228,,8.88
457.686,,32.88
458.145,,5.88
458.604,,-6.12
459.062,,-0.12
459.521,,30.88
459.98,,27.88
460.438,,12.88
460.897,,3.88
461.355,,6.88
461.814,,10.88
462.272,,34.88
462.731,,-4.12
463.189,,0.88
463.647,,4.88
464.106,,7.88
464.564,,17.88
465.022,,3.88
465.481,,12.88
465.939,,52.88
466.397,,-14.12
466.855,,6.88
467.313,,16.88
467.771,,-2.12
468.229,,2.88
468.687,,25.88
469.145,,10.88
469.603,,-3.12
470.061,,14.88
470.519,,2.88
470.977,,-1.12
471.435,,5.88
471.893,,-7.12
472.351,,-9.12
472.809,,-3.12
473.266,,19.88
473.724,,20.88
474.182,,20.88
474.64,,14.88
475.097,,13.88
475.555,,7.88
476.012,,-3.12
476.47,,7.88
476.928,,1.88
477.385,,12.88
477.843,,8.88
478.3,,-17.12
478.757,,10.88
479.215,,26.88
479.672,,24.88
480.13,,-8.12
480.587,,15.88
481.044,,16.88
481.501,,31.88
481.959,,6.88
482.416,,10.88
482.873,,-7.12
483.33,,0.88
483.787,,-10.12
484.244,,-3.12
484.701,,-7.12
485.159,,24.88
485.616,,10.88
486.072,,-5.12
486.529,,6.88
486.986,,1.88
487.443,,-5.12
487.9,,-16.12
488.357,,19.88
488.814,,22.88
489.271,,5.88
489.727,,-27.12
490.184,,12.88
490.641,,3.88
491.097,,25.88
491.554,,-3.12
492.011,,6.88
492.467,,10.88
492.924,,40.88
493.38,,3.88
493.837,,-7.12
494.293,,-4.12
494.75,,6.88
495.206,,17.88
495.663,,11.88
496.119,,15.88
496.575,,19.88
497.032,,22.88
497.488,,1.88
497.944,,28.88
498.4,,21.88
498.857,,17.88
499.313,,9.88
499.769,,7.88
500.225,,-8.12
500.681,,13.88
501.137,,17.88
501.593,,17.88
502.049,,17.88
502.505,,12.88
502.961,,1.88
503.417,,1.88
503.873,,28.88
504.329,,19.88
504.785,,30.88
505.241,,11.88
505.696,,21.88
506.152,,33.88
506.608,,7.88
507.064,,-0.12
507.519,,-2.12
507.975,,8.88
508.431,,26.88
508.886,,21.88
509.342,,-1.12
509.797,,13.88
510.253,,14.88
510.708,,-2.12
511.164,,23.88
511.619,,27.88
512.075,,33.88
512.53,,2.88
512.985,,-7.12
513.441,,28.88
513.896,,19.88
514.351,,47.88
514.806,,-13.12
515.262,,3.88
515.717,,9.88
516.172,,16.88
516.627,,-0.12
517.082,,16.88
517.537,,2.88
517.992,,17.88
518.447,,-2.12
518.902,,19.88
519.357,,24.88
519.812,,30.88
520.267,,-3.12
520.722,,-7.12
521.177,,12.88
521.632,,2.88
522.087,,-12.12
522.541,,-4.12
522.996,,26.88
523.451,,20.88
523.906,,14.88
524.36,,15.88
524.815,,11.88
525.27,,19.88
525.724,,32.88
526.179,,-10.12
526.633,,28.88
527.088,,11.88
527.542,,28.88
527.997,,1.88
528.451,,0.88
528.906,,27.88
529.36,,19.88
529.814,,24.88
530.269,,18.88
530.723,,15.88
531.177,,2.88
531.631,,16.88
532.086,,14.88
532.54,,42.88
532.994,,10.88
533.448,,13.88
533.902,,9.88
534.356,,17.88
534.81,,12.88
535.264,,1.88
535.718,,17.88
536.172,,19.88
536.626,,0.88
537.08,,7.88
537.534,,3.88
537.988,,5.88
538.442,,18.88
538.896,,32.88
539.349,,34.88
539.803,,4.88
540.257,,14.88
540.711,,5.88
541.164,,14.88
541.618,,4.88
542.072,,17.88
542.525,,14.88
542.979,,33.88
543.432,,-9.12
543.886,,28.88
544.339,,16.88
544.793,,13.88
545.246,,13.88
545.7,,9.88
546.153,,12.88
546.606,,15.88
547.06,,3.88
547.513,,14.88
547.966,,9.88
548.42,,24.88
548.873,,-15.12
549.326,,0.88
549.779,,12.88
550.232,,5.88
550.685,,4.88
551.138,,-7.12
551.592,,-10.12
552.045,,-5.12
552.498,,15.88
552.951,,4.88
553.404,,14.88
553.856,,4.88
554.309,,18.88
554.762,,12.88
555.215,,15.88
555.668,,32.88
556.121,,33.88
556.574,,14.88
557.026,,15.88
557.479,,8.88
557.932,,22.88
558.384,,7.88
558.837,,19.88
559.29,,4.88
559.742,,46.88
560.195,,44.88
560.647,,8.88
561.1,,1.88
561.552,,5.88
562.005,,8.88
562.457,,4.88
562.91,,-3.12
563.362,,8.88
563.814,,11.88
564.267,,4.88
564.719,,-3.12
565.171,,12.88
565.624,,33.88
566.076,,-11.12
566.528,,-0.12
566.98,,24.88
567.432,,0.88
567.884,,28.88
568.337,,-14.12
568.789,,2.88
569.241,,19.88
569.693,,17.88
570.145,,-7.12
570.597,,29.88
571.049,,6.88
571.5,,8.88
571.952,,-26.12
572.404,,17.88
572.856,,5.88
573.308,,13.88
573.76,,22.88
574.211,,24.88
574.663,,26.88
575.115,,33.88
575.567,,-2.12
576.018,,-4.12
576.47,,18.88
576.921,,5.88
577.373,,23.88
577.825,,14.88
578.276,,-10.12
578.728,,17.88
579.179,,27.88
579.63,,29.88
580.082,,7.88
580.533,,9.88
580.985,,12.88
581.436,,4.88
581.887,,18.88
582.339,,27.88
582.79,,36.88
583.241,,-5.12
583.692,,4.88
584.144,,11.88
584.595,,2.88
585.046,,13.88
585.497,,23.88
585.948,,14.88
586.399,,12.88
586.85,,34.88
587.301,,11.88
587.752,,-6.12
588.203,,25.88
588.654,,20.88
589.105,,26.88
589.556,,21.88
590.007,,31.88
590.457,,10.88
590.908,,-1.12
591.359,,16.88
591.81,,7.88
592.261,,9.88
592.711,,14.88
593.162,,18.88
593.613,,16.88
594.063,,40.88
594.514,,22.88
594.964,,21.88
595.415,,24.88
595.865,,28.88
596.316,,42.88
596.766,,3.88
597.217,,12.88
597.667,,6.88
598.118,,20.88
598.568,,4.88
599.018,,-4.12
599.469,,-3.12
599.919,,15.88
600.369,,20.88
600.82,,32.88
601.27,,21.88
601.72,,27.88
602.17,,-5.12
602.62,,10.88
603.07,,1.88
603.52,,12.88
603.971,,16.88
604.421,,16.88
604.871,,50.88
605.321,,30.88
605.771,,24.88
606.221,,5.88
606.67,,29.88
607.12,,24.88
607.57,,35.88
608.02,,27.88
608.47,,21.88
608.92,,14.88
609.369,,15.88
609.819,,12.88
610.269,,4.88
610.719,,12.88
611.168,,-0.12
611.618,,13.88
612.067,,16.88
612.517,,41.88
612.967,,29.88
613.416,,37.88
613.866,,11.88
614.315,,20.88
614.765,,26.88
615.214,,2.88
615.663,,13.88
616.113,,19.88
616.562,,28.88
617.012,,27.88
617.461,,21.88
617.91,,13.88
618.359,,28.88
618.809,,29.88
619.258,,20.88
619.707,,16.88
620.156,,22.88
620.605,,21.88
621.055,,53.88
621.504,,-3.12
621.953,,24.88
622.402,,20.88
622.851,,40.88
623.3,,12.88
623.749,,23.88
624.198,,-7.12
624.647,,31.88
625.095,,20.88
625.544,,21.88
625.993,,43.88
626.442,,19.88
626.891,,22.88
627.34,,14.88
627.788,,20.88
628.237,,24.88
628.686,,13.88
629.134,,24.88
629.583,,24.88
630.032,,15.88
630.48,,21.88
630.929,,15.88
631.377,,19.88
631.826,,29.88
632.274,,37.88
632.723,,22.88
633.171,,39.88
633.62,,19.88
634.068,,41.88
634.516,,4.88
634.965,,10.88
635.413,,36.88
635.861,,26.88
636.31,,34.88
636.758,,24.88
637.206,,26.88
637.654,,29.88
638.103,,37.88
638.551,,12.88
638.999,,17.88
639.447,,30.88
639.895,,26.88
640.343,,41.88
640.791,,29.88
641.239,,32.88
641.687,,25.88
642.135,,16.88
642.583,,47.88
643.031,,44.88
643.479,,44.88
643.927,,37.88
644.374,,24.88
644.822,,27.88
645.27,,25.88
645.718,,30.88
646.166,,29.88
646.613,,30.88
647.061,,74.88
647.509,,46.88
647.956,,24.88
648.404,,37.88
648.851,,19.88
649.299,,32.88
649.747,,27.88
650.194,,36.88
650.642,,41.88
651.089,,54.88
651.537,,28.88
651.984,,12.88
652.431,,62.88
652.879,,61.88
653.326,,48.88
653.773,,52.88
654.221,,49.88
654.668,,25.88
655.115,,27.88
655.562,,64.88
656.01,,52.88
656.457,,35.88
656.904,,47.88
657.351,,26.88
657.798,,42.88
658.245,,39.88
658.692,,39.88
659.139,,66.88
659.586,,61.88
660.033,,66.88
660.48,,72.88
660.927,,62.88
661.374,,64.88
661.821,,65.88
662.268,,80.88
662.715,,62.88
663.162,,77.88
663.608,,95.88
664.055,,59.88
664.502,,75.88
664.949,,68.88
665.395,,95.88
665.842,,64.88
666.289,,106.88
666.735,,104.88
667.182,,111.88
667.629,,110.88
668.075,,106.88
668.522,,87.88
668.968,,92.88
669.415,,97.88
669.861,,105.88
670.308,,77.88
670.754,,120.88
671.2,,120.88
671.647,,127.88
672.093,,124.88
672.539,,115.88
672.986,,128.88
673.432,,155.88
673.878,,145.88
674.324,,146.88
674.771,,135.88
675.217,,162.88
675.663,,160.88
676.109,,147.88
676.555,,123.88
677.001,,167.88
677.447,,163.88
677.893,,209.88
678.339,,173.88
678.785,,215.88
679.231,,214.88
679.677,,222.88
680.123,,238.88
680.569,,241.88
681.015,,245.88
681.461,,251.88
681.907,,255.88
682.353,,274.88
682.798,,271.88
683.244,,229.88
683.69,,269.88
684.135,,278.88
684.581,,296.88
685.027,,295.88
685.472,,318.88
685.918,,333.88
686.364,,348.88
686.809,,353.88
687.255,,350.88
687.7,,362.88
688.146,,392.88
688.591,,414.88
689.037,,399.88
689.482,,420.88
689.928,,435.88
690.373,,451.88
690.818,,463.88
691.264,,500.88
691.709,,489.88
692.154,,509.88
692.6,,563.88
693.045,,544.88
693.49,,603.88
693.935,,606.88
694.38,,629.88
694.825,,626.88
695.271,,662.88
695.716,,687.88
696.161,,717.88
696.606,,707.88
697.051,,745.88
697.496,,744.88
697.941,,790.88
698.386,,832.88
698.831,,821.88
699.276,,864.88
699.721,,928.88
700.165,,939.88
700.61,,970.88
701.055,,995.88
701.5,,1041.88
701.945,,1076.88
702.389,,1127.88
702.834,,1168.88
703.279,,1215.88
703.724,,1254.88
704.168,,1256.88
704.613,,1324.88
705.058,,1346.88
705.502,,1383.88
705.947,,1462.88
706.391,,1504.88
706.836,,1549.88
707.28,,1601.88
707.725,,1682.88
708.169,,1726.88
708.614,,1834.88
709.058,,1853.88
709.502,,1921.88
709.947,,1981.88
710.391,,2062.88
710.835,,2143.88
711.28,,2212.88
711.724,,2237.88
712.168,,2341.88
712.613,,2395.88
713.057,,2518.88
713.501,,2563.88
713.945,,2670.88
714.389,,2765.88
714.833,,2934.88
715.277,,2924.88
715.722,,2980.88
716.166,,3046.88
716.61,,3281.88
717.054,,3349.88
717.498,,3396.88
717.942,,3571.88
718.385,,3659.88
718.829,,3750.88
719.273,,3918.88
719.717,,4095.88
720.161,,4198.88
720.605,,4288.88
721.049,,4406.88
721.492,,4543.88
721.936,,4738.88
722.38,,4887.88
722.824,,4986.88
723.267,,5268.88
723.711,,5440.88
724.155,,5479.88
724.598,,5664.88
725.042,,5946.88
725.485,,6179.88
725.929,,6311.88
726.372,,6452.88
726.816,,6738.88
727.259,,7052.88
727.703,,7130.88
728.146,,7409.88
728.59,,7696.88
729.033,,7887.88
729.476,,8172.88
729.92,,8380.88
730.363,,8654.88
730.806,,9025.88
731.25,,9238.88
731.693,,9594.88
732.136,,9952.88
732.579,,10134.88
733.023,,10534.88
733.466,,10956.88
733.909,,11207.88
734.352,,11359.88
734.795,,11854.88
735.238,,11993.88
735.681,,12154.88
736.124,,12551.88
736.567,,12922.88
737.01,,13144.88
737.453,,13423.88
737.896,,13610.88
738.339,,13797.88
738.782,,14098.88
739.225,,14273.88
739.668,,14559.88
740.111,,14696.88
740.553,,14810.88
740.996,,15042.88
741.439,,15168.88
741.882,,15393.88
742.325,,15513.88
742.767,,15540.88
743.21,,15769.88
743.653,,15783.88
744.095,,15780.88
744.538,,15777.88
744.98,,15782.88
745.423,,15787.88
745.866,,15775.88
746.308,,15781.88
746.751,,15775.88
747.193,,15777.88
747.635,,15782.88
748.078,,15787.88
748.52,,15772.88
748.963,,15764.88
749.405,,15780.88
749.847,,15782.88
750.29,,15767.88
750.732,,15776.88
751.174,,15794.88
751.617,,15798.88
752.059,,15785.88
752.501,,15776.88
752.943,,15772.88
753.385,,15779.88
753.828,,15788.88
754.27,,15777.88
754.712,,15784.88
755.154,,15788.88
755.596,,15791.88
756.038,,15782.88
756.48,,15776.88
756.922,,15781.88
757.364,,15801.88
757.806,,15789.88
758.248,,15767.88
758.69,,15783.88
759.132,,15779.88
759.574,,15765.88
760.016,,15764.88
760.457,,15779.88
760.899,,15783.88
761.341,,15749.88
761.783,,15763.88
762.224,,15793.88
762.666,,15773.88
763.108,,15761.88
763.55,,15777.88
763.991,,15768.88
764.433,,15793.88
764.874,,15782.88
765.316,,15783.88
765.758,,15779.88
766.199,,15773.88
766.641,,15776.88
767.082,,15778.88
767.524,,15777.88
767.965,,15789.88
768.407,,15769.88
768.848,,15775.88
769.289,,15787.88
769.731,,15782.88
770.172,,15773.88
770.613,,15784.88
771.055,,15762.88
771.496,,15769.88
771.937,,15772.88
772.379,,15765.88
772.82,,15762.88
773.261,,15767.88
773.702,,15786.88
774.143,,15772.88
774.584,,15770.88
775.026,,15794.88
775.467,,15778.88
775.908,,15775.88
776.349,,15782.88
776.79,,15777.88
777.231,,15797.88
777.672,,15767.88
778.113,,15771.88
778.554,,15768.88
778.995,,15759.88
779.436,,15787.88
779.876,,15775.88
780.317,,15775.88
780.758,,15769.88
781.199,,15784.88
781.64,,15793.88
782.081,,15774.88
782.521,,15765.88
782.962,,15788.88
783.403,,15787.88
783.843,,15767.88
784.284,,15773.88
784.725,,15785.88
785.165,,15793.88
785.606,,15785.88
786.047,,15768.88
786.487,,15776.88
786.928,,15777.88
787.368,,15789.88
787.809,,15783.88
788.249,,15778.88
788.69,,15766.88
789.13,,15757.88
789.571,,15777.88
790.011,,15777.88
790.451,,15794.88
790.892,,15786.88
791.332,,15776.88
791.772,,15763.88
792.213,,15765.88
792.653,,15777.88
793.093,,15768.88
793.533,,15775.88
793.974,,15779.88
794.414,,15771.88
794.854,,15786.88
795.294,,15766.88
795.734,,15792.88
796.174,,15775.88
796.614,,15780.88
797.054,,15779.88
797.494,,15771.88
797.934,,15791.88
798.374,,15787.88
798.814,,15771.88
799.254,,15775.88
799.694,,15780.88
800.134,,15773.88
800.574,,15779.88
801.014,,15776.88
801.454,,15762.88
801.894,,15750.88
802.334,,15767.88
802.773,,15780.88
803.213,,15766.88
803.653,,15788.88
804.093,,15774.88
804.532,,15755.88
804.972,,15757.88
805.412,,15781.88
805.851,,15773.88
806.291,,15774.88
806.731,,15774.88
807.17,,15788.88
807.61,,15785.88
808.049,,15778.88
808.489,,15717.88
808.928,,15432.88
809.368,,15281.88
809.807,,15086.88
810.247,,14967.88
810.686,,14857.88
811.125,,14652.88
811.565,,14524.88
812.004,,14353.88
812.444,,14130.88
812.883,,13871.88
813.322,,13683.88
813.761,,13538.88
814.201,,13270.88
814.64,,13025.88
815.079,,12762.88
815.518,,12698.88
815.958,,12301.88
816.397,,12026.88
816.836,,11615.88
817.275,,11380.88
817.714,,11105.88
818.153,,10810.88
818.592,,10485.88
819.031,,10144.88
819.47,,9989.88
819.909,,9603.88
820.348,,9238.88
820.787,,9017.88
821.226,,8727.88
821.665,,8554.88
822.104,,8221.88
822.543,,7898.88
822.982,,7672.88
823.42,,7448.88
823.859,,7184.88
824.298,,6976.88
824.737,,6703.88
825.176,,6483.88
825.614,,6240.88
826.053,,6055.88
826.492,,5867.88
826.93,,5686.88
827.369,,5494.88
827.808,,5357.88
828.246,,5186.88
828.685,,5003.88
829.123,,4873.88
829.562,,4663.88
830,,4528.88
830.439,,4363.88
830.877,,4216.88
831.316,,4099.88
831.754,,4030.88
832.193,,3863.88
832.631,,3726.88
833.07,,3539.88
833.508,,3459.88
833.946,,3356.88
834.385,,3216.88
834.823,,3200.88
835.261,,3084.88
835.7,,2966.88
836.138,,2846.88
836.576,,2773.88
837.014,,2701.88
837.452,,2568.88
837.891,,2574.88
838.329,,2399.88
838.767,,2369.88
839.205,,2300.88
839.643,,2177.88
840.081,,2078.88
840.519,,2092.88
840.957,,1999.88
841.395,,1917.88
841.833,,1830.88
842.271,,1784.88
842.709,,1761.88
843.147,,1676.88
843.585,,1644.88
844.023,,1581.88
844.461,,1545.88
844.899,,1536.88
845.336,,1398.88
845.774,,1415.88
846.212,,1339.88
846.65,,1279.88
847.088,,1264.88
847.525,,1217.88
847.963,,1227.88
848.401,,1128.88
848.838,,1151.88
849.276,,1114.88
849.714,,1095.88
850.151,,1058.88
850.589,,1007.88
851.026,,966.88
851.464,,932.88
851.902,,925.88
852.339,,881.88
852.777,,862.88
853.214,,834.88
853.651,,822.88
854.089,,782.88
854.526,,733.88
854.964,,748.88
855.401,,732.88
855.838,,699.88
856.276,,660.88
856.713,,627.88
857.15,,622.88
857.588,,608.88
858.025,,569.88
858.462,,549.88
858.899,,562.88
859.337,,568.88
859.774,,540.88
860.211,,508.88
860.648,,506.88
861.085,,481.88
861.522,,475.88
861.959,,443.88
862.397,,448.88
862.834,,424.88
863.271,,429.88
863.708,,420.88
864.145,,400.88
864.582,,407.88
865.019,,377.88
865.456,,359.88
865.892,,343.88
866.329,,378.88
866.766,,335.88
867.203,,316.88
867.64,,294.88
868.077,,286.88
868.514,,293.88
868.95,,296.88
869.387,,280.88
869.824,,266.88
870.261,,254.88
870.697,,265.88
871.134,,236.88
871.571,,266.88
872.007,,236.88
872.444,,265.88
872.88,,230.88
873.317,,220.88
873.754,,226.88
874.19,,217.88
874.627,,182.88
875.063,,204.88
875.5,,199.88
875.936,,203.88
876.373,,193.88
876.809,,169.88
877.246,,147.88
877.682,,186.88
878.118,,165.88
878.555,,146.88
878.991,,159.88
879.427,,170.88
879.864,,161.88
880.3,,119.88
880.736,,158.88
881.172,,140.88
881.609,,147.88
882.045,,146.88
882.481,,131.88
882.917,,126.88
883.353,,125.88
883.79,,130.88
884.226,,103.88
884.662,,116.88
885.098,,104.88
885.534,,105.88
885.97,,85.88
886.406,,114.88
886.842,,101.88
887.278,,99.88
887.714,,87.88
888.15,,92.88
888.586,,115.88
889.022,,99.88
889.458,,92.88
889.893,,76.88
890.329,,96.88
890.765,,108.88
891.201,,94.88
891.637,,86.88
892.073,,92.88
892.508,,66.88
892.944,,57.88
893.38,,71.88
893.816,,70.88
894.251,,78.88
894.687,,72.88
895.123,,70.88
895.558,,70.88
895.994,,89.88
896.429,,100.88
896.865,,86.88
897.301,,61.88
897.736,,93.88
898.172,,64.88
898.607,,55.88
899.043,,46.88
899.478,,56.88
899.913,,62.88
900.349,,55.88
900.784,,45.88
901.22,,69.88
901.655,,64.88
902.09,,52.88
902.526,,35.88
902.961,,66.88
903.396,,69.88
903.832,,72.88
904.267,,39.88
904.702,,67.88
905.137,,50.88
905.573,,63.88
906.008,,57.88
906.443,,54.88
906.878,,63.88
907.313,,36.88
907.748,,41.88
908.183,,38.88
908.619,,34.88
909.054,,67.88
909.489,,41.88
909.924,,42.88
910.359,,25.88
910.794,,43.88
911.229,,41.88
911.664,,35.88
912.099,,27.88
912.533,,50.88
912.968,,41.88
913.403,,19.88
913.838,,28.88
914.273,,49.88
914.708,,50.88
915.143,,43.88
915.577,,36.88
916.012,,56.88
916.447,,41.88
916.882,,25.88
917.316,,40.88
917.751,,26.88
918.186,,23.88
918.62,,26.88
919.055,,46.88
919.49,,33.88
919.924,,38.88
920.359,,23.88
920.793,,31.88
921.228,,31.88
921.663,,51.88
922.097,,36.88
922.532,,21.88
922.966,,73.88
923.4,,41.88
923.835,,26.88
924.269,,17.88
924.704,,24.88
925.138,,27.88
925.573,,28.88
926.007,,35.88
926.441,,8.88
926.876,,32.88
927.31,,37.88
927.744,,23.88
928.178,,25.88
928.613,,34.88
929.047,,43.88
929.481,,38.88
929.915,,31.88
930.35,,43.88
930.784,,62.88
931.218,,37.88
931.652,,31.88
932.086,,31.88
932.52,,32.88
932.954,,42.88
933.388,,36.88
933.822,,27.88
934.256,,34.88
934.69,,53.88
935.124,,22.88
935.558,,23.88
935.992,,39.88
936.426,,41.88
936.86,,28.88
937.294,,27.88
937.728,,39.88
938.162,,49.88
938.596,,35.88
939.029,,8.88
939.463,,30.88
939.897,,32.88
940.331,,21.88
940.765,,22.88
941.198,,15.88
941.632,,30.88
942.066,,22.88
942.499,,27.88
942.933,,22.88
943.367,,10.88
943.8,,8.88
944.234,,11.88
944.668,,6.88
945.101,,24.88
945.535,,22.88
945.968,,56.88
946.402,,38.88
946.835,,11.88
947.269,,19.88
947.702,,35.88
948.136,,9.88
948.569,,42.88
949.003,,28.88
949.436,,35.88
949.869,,24.88
950.303,,24.88
950.736,,35.88
951.17,,13.88
951.603,,19.88
952.036,,29.88
952.469,,22.88
952.903,,14.88
953.336,,23.88
953.769,,28.88
954.202,,11.88
954.636,,25.88
955.069,,23.88
955.502,,4.88
955.935,,6.88
956.368,,4.88
956.801,,22.88
957.234,,7.88
957.668,,15.88
958.101,,29.88
958.534,,30.88
958.967,,14.88
959.4,,24.88
959.833,,53.88
960.266,,36.88
960.699,,13.88
961.132,,3.88
961.565,,19.88
961.997,,17.88
962.43,,6.88
962.863,,0.88
963.296,,10.88
963.729,,37.88
964.162,,45.88
964.595,,2.88
965.027,,24.88
965.46,,27.88
965.893,,40.88
966.326,,24.88
966.758,,23.88
967.191,,31.88
967.624,,41.88
968.056,,22.88
968.489,,23.88
968.922,,34.88
969.354,,37.88
969.787,,19.88
970.22,,46.88
970.652,,28.88
971.085,,25.88
971.517,,19.88
971.95,,25.88
972.382,,2.88
972.815,,27.88
973.247,,18.88
973.68,,9.88
974.112,,24.88
974.545,,17.88
974.977,,27.88
975.409,,1.88
975.842,,13.88
976.274,,23.88
976.707,,31.88
977.139,,8.88
977.571,,5.88
978.003,,32.88
978.436,,16.88
978.868,,14.88
979.3,,3.88
979.732,,24.88
980.165,,23.88
980.597,,16.88
981.029,,8.88
981.461,,12.88
981.893,,16.88
982.325,,33.88
982.758,,17.88
983.19,,-2.12
983.622,,25.88
984.054,,12.88
984.486,,6.88
984.918,,27.88
985.35,,31.88
985.782,,42.88
986.214,,23.88
986.646,,25.88
987.078,,32.88
987.51,,25.88
987.942,,4.88
988.373,,12.88
988.805,,37.88
989.237,,22.88
989.669,,21.88
990.101,,16.88
990.533,,2.88
990.965,,33.88
991.396,,18.88
991.828,,11.88
992.26,,29.88
992.692,,5.88
993.123,,35.88
993.555,,8.88
993.987,,23.88
994.418,,22.88
994.85,,-7.12
995.282,,-1.12
995.713,,5.88
996.145,,34.88
996.576,,17.88
997.008,,25.88
997.44,,0.88
997.871,,33.88
998.303,,24.88
998.734,,13.88
999.166,,25.88
999.597,,5.88
1000.029,,11.88
1000.46,,0.88
1000.891,,-7.12
1001.323,,17.88
1001.754,,9.88
1002.186,,26.88
1002.617,,-14.12
1003.048,,7.88
1003.48,,2.88
1003.911,,25.88
1004.342,,11.88
1004.774,,28.88
1005.205,,28.88
1005.636,,22.88
1006.067,,21.88
1006.498,,21.88
1006.93,,32.88
1007.361,,31.88
1007.792,,7.88
1008.223,,20.88
1008.654,,17.88
1009.085,,34.88
1009.517,,4.88
1009.948,,9.88
1010.379,,15.88
1010.81,,26.88
1011.241,,27.88
1011.672,,35.88
1012.103,,15.88
1012.534,,3.88
1012.965,,19.88
1013.396,,0.88
1013.827,,27.88
1014.258,,14.88
1014.689,,31.88
1015.12,,-8.12
1015.55,,-0.12
1015.981,,33.88
1016.412,,38.88
1016.843,,6.88
1017.274,,-6.12
1017.705,,5.88
1018.135,,-10.12
1018.566,,15.88
1018.997,,-3.12
1019.428,,11.88
1019.858,,23.88
1020.289,,3.88
1020.72,,11.88
1021.15,,21.88
1021.581,,13.88
1022.012,,16.88
1022.442,,34.88
1022.873,,-2.12
1023.304,,22.88
1023.734,,34.88
1024.165,,-11.12
1024.595,,2.88
1025.026,,31.88
1025.456,,8.88
1025.887,,18.88
1026.317,,-4.12
1026.748,,14.88
1027.178,,38.88
1027.609,,30.88
1028.039,,24.88
1028.47,,50.88
1028.9,,12.88
1029.331,,31.88
1029.761,,10.88
1030.191,,-7.12
1030.622,,19.88
1031.052,,23.88
1031.482,,-11.12
1031.913,,19.88
1032.343,,17.88
1032.773,,24.88
1033.203,,16.88
1033.634,,19.88
1034.064,,22.88
1034.494,,46.88
1034.924,,1.88
1035.354,,26.88
1035.784,,22.88
1036.215,,-6.12
1036.645,,5.88
1037.075,,0.88
1037.505,,6.88
1037.935,,14.88
1038.365,,19.88
1038.795,,-7.12
1039.225,,-3.12
1039.655,,19.88
1040.085,,20.88
1040.515,,6.88
1040.945,,-4.12
1041.375,,14.88
1041.805,,27.88
1042.235,,19.88
1042.665,,4.88
1043.095,,10.88
1043.525,,28.88
1043.955,,12.88
1044.384,,7.88
1044.814,,35.88
1045.244,,14.88
1045.674,,21.88
1046.104,,24.88
1046.534,,27.88
1046.963,,11.88
1047.393,,18.88
1047.823,,11.88
1048.252,,22.88
1048.682,,6.88
1049.112,,27.88
1049.542,,26.88
1049.971,,-11.12
1050.401,,10.88
1050.831,,30.88
1051.26,,31.88
1051.69,,12.88
1052.119,,20.88
1052.549,,32.88
1052.978,,24.88
1053.408,,2.88
1053.838,,10.88
1054.267,,-11.12
1054.697,,34.88
1055.126,,5.88
1055.555,,9.88
1055.985,,35.88
1056.414,,18.88
1056.844,,-11.12
1057.273,,-5.12
1057.703,,-4.12
1058.132,,17.88
1058.561,,15.88
1058.991,,-8.12
1059.42,,21.88
1059.849,,12.88
1060.279,,13.88
1060.708,,12.88
1061.137,,9.88
1061.566,,0.88
1061.996,,28.88
1062.425,,4.88
1062.854,,4.88
1063.283,,34.88
1063.713,,13.88
1064.142,,-2.12
1064.571,,12.88
1065,,7.88
1065.429,,-2.12
1065.858,,-17.12
1066.287,,-13.12
1066.716,,33.88
1067.146,,25.88
1067.575,,8.88
1068.004,,-9.12
1068.433,,0.88
1068.862,,30.88
1069.291,,10.88
1069.72,,4.88
1070.149,,13.88
1070.578,,6.88
1071.007,,35.88
1071.435,,6.88
1071.864,,17.88
1072.293,,40.88
1072.722,,14.88
1073.151,,-7.12
1073.58,,-1.12
1074.009,,17.88
1074.438,,14.88
1074.866,,22.88
1075.295,,6.88
1075.724,,25.88
1076.153,,3.88
1076.581,,-0.12
1077.01,,-3.12
1077.439,,33.88
1077.868,,8.88
1078.296,,0.88
1078.725,,-16.12
1079.154,,0.88
1079.582,,-6.12
1080.011,,2.88
1080.44,,-14.12
1080.868,,3.88
1081.297,,31.88
1081.725,,28.88
1082.154,,-11.12
1082.583,,8.88
1083.011,,39.88
1083.44,,-0.12
1083.868,,-5.12
1084.297,,-12.12
1084.725,,20.88
1085.154,,20.88
1085.582,,7.88
1086.011,,-4.12
1086.439,,8.88
1086.867,,22.88
1087.296,,24.88
1087.724,,-9.12
1088.153,,16.88
1088.581,,8.88
1089.009,,34.88
1089.438,,17.88
1089.866,,0.88
1090.294,,10.88
1090.723,,1.88
1091.151,,-10.12
1091.579,,-1.12
1092.007,,3.88
1092.436,,20.88
1092.864,,5.88
1093.292,,-3.12
1093.72,,22.88
1094.148,,23.88
1094.576,,16.88
1095.005,,-16.12
1095.433,,-8.12
1095.861,,9.88
1096.289,,15.88
1096.717,,-21.12
1097.145,,-15.12
1097.573,,22.88
1098.001,,14.88
1098.429,,9.88
1098.857,,7.88
1099.285,,3.88
1099.713,,27.88
1100.141,,23.88
1100.569,,14.88
1100.997,,11.88
1101.425,,33.88
1101.853,,1.88
1102.281,,3.88
1102.709,,11.88
1103.137,,5.88
1103.565,,-2.12
1103.993,,4.88
1104.421,,15.88
1104.848,,20.88
1105.276,,13.88
1105.704,,-0.12
1106.132,,-1.12
1106.56,,20.88
